[
  {
    "fullUrl": "resource:0",
    "resource": {
      "resourceType": "Coverage",
      "meta": {
        "versionId": "1",
        "lastUpdated": "2021-04-06T10:49:02.473+00:00",
        "profile": [
          "http://hl7.org/fhir/us/insurance-card/StructureDefinition/C4DIC-Coverage"
        ]
      },
      "extension": [
        {
          "extension": [
            {
              "url": "memberId",
              "valueId": "102345672-01"
            },
            {
              "url": "name",
              "valueHumanName": {
                "family": "Doe",
                "given": ["John"]
              }
            }
          ],
          "url": "http://hl7.org/fhir/us/insurance-card/StructureDefinition/C4DIC-PlanBeneficiaries-extension"
        },
        {
          "extension": [
            {
              "url": "memberId",
              "valueId": "102345672-02"
            },
            {
              "url": "name",
              "valueHumanName": {
                "family": "Doe",
                "given": ["Jane"]
              }
            }
          ],
          "url": "http://hl7.org/fhir/us/insurance-card/StructureDefinition/C4DIC-PlanBeneficiaries-extension"
        },
        {
          "extension": [
            {
              "url": "memberId",
              "valueId": "102345672-03"
            },
            {
              "url": "name",
              "valueHumanName": {
                "family": "Doe",
                "given": ["Jimmy"]
              }
            }
          ],
          "url": "http://hl7.org/fhir/us/insurance-card/StructureDefinition/C4DIC-PlanBeneficiaries-extension"
        },
        {
          "extension": [
            {
              "url": "memberId",
              "valueId": "102345672-04"
            },
            {
              "url": "name",
              "valueHumanName": {
                "family": "Doe",
                "given": ["Ginny"]
              }
            }
          ],
          "url": "http://hl7.org/fhir/us/insurance-card/StructureDefinition/C4DIC-PlanBeneficiaries-extension"
        },
        {
          "url": "http://hl7.org/fhir/us/insurance-card/StructureDefinition/C4DIC-AdditionalCardInformation-extension",
          "valueAnnotation": {
            "text": "If you use a TTY, call 711.\nYou may be asked to present this card when you receive care or fill a perscription. This card does not gaurentee coverage. Intentionally misusing this card may be considered fraud or a violation of the law.\nWe encourage you to use a primary care physician as a valuable resource and personal health advocate."
          }
        },
        {
          "url": "http://hl7.org/fhir/us/insurance-card/StructureDefinition/C4DIC-CardIssueDate-extension",
          "valueDate": "2020-12-15"
        },
        {
          "url": "http://hl7.org/fhir/us/insurance-card/StructureDefinition/C4DIC-BackgroundColor-extension",
          "valueCodeableConcept": {
            "coding": [
              {
                "system": "http://terminology.hl7.org/CodeSystem/IECColourManagement",
                "code": "#00bfff"
              }
            ]
          }
        },
        {
          "url": "http://hl7.org/fhir/us/insurance-card/StructureDefinition/C4DIC-HighlightColor-extension",
          "valueCodeableConcept": {
            "coding": [
              {
                "system": "http://terminology.hl7.org/CodeSystem/IECColourManagement",
                "code": "#ceebf5"
              }
            ]
          }
        },
        {
          "extension": [
            {
              "url": "label",
              "valueString": "ACME Inc."
            },
            {
              "url": "description",
              "valueString": "Company logo"
            },
            {
              "url": "image",
              "valueAttachment": {
                "contentType": "image/png",
                "data": ""
              }
            }
          ],
          "url": "http://hl7.org/fhir/us/insurance-card/StructureDefinition/C4DIC-Logo-extension"
        }
      ],
      "identifier": [
        {
          "type": {
            "coding": [
              {
                "system": "http://terminology.hl7.org/CodeSystem/v2-0203",
                "code": "MB",
                "display": "Member Number"
              }
            ]
          },
          "system": "https://www.acmeinsurance.com/glossary/memberid",
          "value": "102345672-02",
          "assigner": {
            "display": "Acme Insurance Co"
          }
        }
      ],
      "status": "active",
      "type": {
        "coding": [
          {
            "system": "http://terminology.hl7.org/CodeSystem/v3-ActCode",
            "code": "HIP",
            "display": "health insurance plan policy"
          }
        ],
        "text": "health insurance plan policy"
      },
      "subscriber": {
        "reference": "resource:1",
        "display": "John Doe"
      },
      "subscriberId": "102345672-01",
      "beneficiary": {
        "reference": "resource:2",
        "display": "Jane Doe"
      },
      "dependent": "02",
      "relationship": {
        "coding": [
          {
            "system": "http://terminology.hl7.org/CodeSystem/subscriber-relationship",
            "code": "spouse",
            "display": "Spouse"
          }
        ],
        "text": "Spouse"
      },
      "period": {
        "start": "2021-01-01"
      },
      "payor": [
        {
          "reference": "resource:3",
          "display": "Acme Insurance Co"
        }
      ],
      "class": [
        {
          "type": {
            "coding": [
              {
                "system": "http://terminology.hl7.org/CodeSystem/coverage-class",
                "code": "group"
              }
            ]
          },
          "value": "993355",
          "name": "Stars Inc"
        },
        {
          "type": {
            "coding": [
              {
                "system": "http://terminology.hl7.org/CodeSystem/coverage-class",
                "code": "plan"
              }
            ]
          },
          "value": "11461128",
          "name": "Acme Gold Plus"
        },
        {
          "type": {
            "coding": [
              {
                "system": "http://hl7.org/fhir/us/insurance-card/CodeSystem/C4DICExtendedCoverageClassCS",
                "code": "division"
              }
            ]
          },
          "value": "11"
        },
        {
          "type": {
            "coding": [
              {
                "system": "http://hl7.org/fhir/us/insurance-card/CodeSystem/C4DICExtendedCoverageClassCS",
                "code": "network"
              }
            ]
          },
          "value": "561490",
          "name": "Acme Gold Plus South"
        },
        {
          "type": {
            "coding": [
              {
                "system": "http://terminology.hl7.org/CodeSystem/coverage-class",
                "code": "rxbin"
              }
            ]
          },
          "value": "100045"
        },
        {
          "type": {
            "coding": [
              {
                "system": "http://terminology.hl7.org/CodeSystem/coverage-class",
                "code": "rxpcn"
              }
            ]
          },
          "value": "1234000"
        }
      ],
      "costToBeneficiary": [
        {
          "type": {
            "coding": [
              {
                "system": "http://hl7.org/fhir/us/insurance-card/CodeSystem/C4DICExtendedCopayTypeCS",
                "code": "FamOutDed",
                "display": "Family Out of Network Deductible"
              }
            ]
          },
          "valueMoney": {
            "value": 10000.0,
            "currency": "USD"
          }
        },
        {
          "type": {
            "coding": [
              {
                "system": "http://hl7.org/fhir/us/insurance-card/CodeSystem/C4DICExtendedCopayTypeCS",
                "code": "FamInDed",
                "display": "Family In Network Deductible"
              }
            ]
          },
          "valueMoney": {
            "value": 8000.0,
            "currency": "USD"
          }
        },
        {
          "type": {
            "coding": [
              {
                "system": "http://hl7.org/fhir/us/insurance-card/CodeSystem/C4DICExtendedCopayTypeCS",
                "code": "FamRxOutDed",
                "display": "Family Pharmacy Out of Network Deductible"
              }
            ]
          },
          "valueMoney": {
            "value": 2000.0,
            "currency": "USD"
          }
        },
        {
          "type": {
            "coding": [
              {
                "system": "http://hl7.org/fhir/us/insurance-card/CodeSystem/C4DICExtendedCopayTypeCS",
                "code": "FamRxInDed",
                "display": "Family Pharmacy In Network Deductible"
              }
            ]
          },
          "valueMoney": {
            "value": 1500.0,
            "currency": "USD"
          }
        },
        {
          "type": {
            "coding": [
              {
                "system": "http://hl7.org/fhir/us/insurance-card/CodeSystem/C4DICExtendedCopayTypeCS",
                "code": "FamOutMax",
                "display": "Family Out of Network Out of Pocket Maximum"
              }
            ]
          },
          "valueMoney": {
            "value": 12000.0,
            "currency": "USD"
          }
        },
        {
          "type": {
            "coding": [
              {
                "system": "http://hl7.org/fhir/us/insurance-card/CodeSystem/C4DICExtendedCopayTypeCS",
                "code": "FamInMax",
                "display": "Family In Network Out of Pocket Maximum"
              }
            ]
          },
          "valueMoney": {
            "value": 10000.0,
            "currency": "USD"
          }
        },
        {
          "type": {
            "coding": [
              {
                "system": "http://hl7.org/fhir/us/insurance-card/CodeSystem/C4DICExtendedCopayTypeCS",
                "code": "FamRxOutMax",
                "display": "Family Pharmacy Out of Network Out of Pocket Maximum"
              }
            ]
          },
          "valueMoney": {
            "value": 3000.0,
            "currency": "USD"
          }
        },
        {
          "type": {
            "coding": [
              {
                "system": "http://hl7.org/fhir/us/insurance-card/CodeSystem/C4DICExtendedCopayTypeCS",
                "code": "FamRxInMax",
                "display": "Family Pharmacy In Network Out of Pocket Maximum"
              }
            ]
          },
          "valueMoney": {
            "value": 2000.0,
            "currency": "USD"
          }
        },
        {
          "type": {
            "coding": [
              {
                "system": "http://terminology.hl7.org/CodeSystem/coverage-copay-type",
                "code": "gpvisit"
              }
            ]
          },
          "valueMoney": {
            "extension": [
              {
                "url": "http://hl7.org/fhir/us/insurance-card/StructureDefinition/C4DIC-BeneficiaryCostString-extension",
                "valueString": "N/A"
              }
            ]
          }
        },
        {
          "type": {
            "coding": [
              {
                "system": "http://terminology.hl7.org/CodeSystem/coverage-copay-type",
                "code": "spvisit"
              }
            ]
          },
          "valueMoney": {
            "extension": [
              {
                "url": "http://hl7.org/fhir/us/insurance-card/StructureDefinition/C4DIC-BeneficiaryCostString-extension",
                "valueString": "N/A"
              }
            ]
          }
        },
        {
          "type": {
            "coding": [
              {
                "system": "http://terminology.hl7.org/CodeSystem/coverage-copay-type",
                "code": "emergency"
              }
            ]
          },
          "valueMoney": {
            "extension": [
              {
                "url": "http://hl7.org/fhir/us/insurance-card/StructureDefinition/C4DIC-BeneficiaryCostString-extension",
                "valueString": "N/A"
              }
            ]
          }
        },
        {
          "type": {
            "coding": [
              {
                "system": "http://hl7.org/fhir/us/insurance-card/CodeSystem/C4DICExtendedCopayTypeCS",
                "code": "rx"
              }
            ]
          },
          "valueMoney": {
            "extension": [
              {
                "url": "http://hl7.org/fhir/us/insurance-card/StructureDefinition/C4DIC-BeneficiaryCostString-extension",
                "valueString": "DED THEN $10/$40/$70/25%"
              }
            ]
          }
        }
      ]
    }
  },
  {
    "fullUrl": "resource:3",
    "resource": {
      "resourceType": "Organization",
      "meta": {
        "versionId": "4",
        "lastUpdated": "2021-08-16T14:08:24.329+00:00",
        "profile": [
          "http://hl7.org/fhir/us/insurance-card/StructureDefinition/C4DIC-Organization"
        ]
      },
      "identifier": [
        {
          "type": {
            "coding": [
              {
                "system": "http://hl7.org/fhir/us/insurance-card/CodeSystem/C4DICIdentifierType",
                "code": "payerid"
              }
            ]
          },
          "value": "45002"
        }
      ],
      "active": true,
      "name": "Acme Insurance Co",
      "contact": [
        {
          "purpose": {
            "coding": [
              {
                "system": "http://hl7.org/fhir/us/insurance-card/CodeSystem/C4DICExtendedContactTypeCS",
                "code": "pharma",
                "display": "Pharmacists"
              }
            ]
          },
          "telecom": [
            {
              "system": "phone",
              "value": "1-800-123-4988"
            }
          ]
        },
        {
          "purpose": {
            "coding": [
              {
                "system": "http://terminology.hl7.org/CodeSystem/contactentity-type",
                "code": "PATINF",
                "display": "Patient"
              }
            ]
          },
          "telecom": [
            {
              "system": "phone",
              "value": "1-800-465-2222"
            },
            {
              "system": "url",
              "value": "http://acmeinsurance.com"
            }
          ]
        },
        {
          "purpose": {
            "coding": [
              {
                "system": "http://hl7.org/fhir/us/insurance-card/CodeSystem/C4DICExtendedContactTypeCS",
                "code": "rxmailorder",
                "display": "Mail Order Pharmacy"
              }
            ]
          },
          "telecom": [
            {
              "system": "phone",
              "value": "1-888-466-1234"
            }
          ]
        },
        {
          "purpose": {
            "coding": [
              {
                "system": "http://hl7.org/fhir/us/insurance-card/CodeSystem/C4DICExtendedContactTypeCS",
                "code": "provider",
                "display": "Provider Service"
              }
            ]
          },
          "telecom": [
            {
              "system": "phone",
              "value": "1-800-444-3333"
            }
          ]
        },
        {
          "purpose": {
            "coding": [
              {
                "system": "http://hl7.org/fhir/us/insurance-card/CodeSystem/C4DICExtendedContactTypeCS",
                "code": "virtual",
                "display": "Virtual Care Services"
              }
            ]
          },
          "telecom": [
            {
              "system": "url",
              "value": "http://virtualdoctor.com"
            }
          ]
        },
        {
          "purpose": {
            "coding": [
              {
                "system": "http://terminology.hl7.org/CodeSystem/contactentity-type",
                "code": "PAYOR",
                "display": "Payor"
              }
            ]
          },
          "address": {
            "type": "postal",
            "text": "P.O. Box 1111 Miami, FL 20222-4021",
            "line": ["P.O. Box 1111"],
            "city": "Miami",
            "state": "FL",
            "postalCode": "20222-4021",
            "country": "US"
          }
        }
      ]
    }
  },
  {
    "fullUrl": "resource:1",
    "resource": {
      "resourceType": "Patient",
      "meta": {
        "lastUpdated": "2020-07-07T13:26:22.0314215+00:00",
        "profile": [
          "http://hl7.org/fhir/us/insurance-card/StructureDefinition/C4DIC-Patient"
        ]
      },
      "language": "en-US",
      "identifier": [
        {
          "type": {
            "coding": [
              {
                "system": "http://terminology.hl7.org/CodeSystem/v2-0203",
                "code": "MB"
              }
            ]
          },
          "system": "https://www.xxxhealthplan.com/fhir/memberidentifier",
          "value": "1234-234-1243-12345678901"
        }
      ],
      "active": true,
      "name": [
        {
          "family": "Doe",
          "given": ["John"]
        }
      ],
      "telecom": [
        {
          "system": "phone",
          "value": "(301)666-1212",
          "rank": 2
        }
      ],
      "gender": "male",
      "birthDate": "1986-01-01",
      "address": [
        {
          "type": "physical",
          "line": ["123 Main Street"],
          "city": "Pittsburgh",
          "state": "PA",
          "postalCode": "12519"
        }
      ],
      "maritalStatus": {
        "coding": [
          {
            "system": "http://terminology.hl7.org/CodeSystem/v3-MaritalStatus",
            "code": "M"
          }
        ]
      }
    }
  },
  {
    "fullUrl": "resource:2",
    "resource": {
      "resourceType": "Patient",
      "meta": {
        "lastUpdated": "2020-07-07T13:26:22.0314215+00:00",
        "profile": [
          "http://hl7.org/fhir/us/insurance-card/StructureDefinition/C4DIC-Patient"
        ]
      },
      "language": "en-US",
      "identifier": [
        {
          "type": {
            "coding": [
              {
                "system": "http://terminology.hl7.org/CodeSystem/v2-0203",
                "code": "MB"
              }
            ]
          },
          "system": "https://www.xxxhealthplan.com/fhir/memberidentifier",
          "value": "1234-234-1243-1238473074"
        }
      ],
      "active": true,
      "name": [
        {
          "family": "Doe",
          "given": ["Jane"]
        }
      ],
      "telecom": [
        {
          "system": "phone",
          "value": "(301)444-1212",
          "rank": 2
        }
      ],
      "gender": "female",
      "birthDate": "1990-11-12",
      "address": [
        {
          "type": "physical",
          "line": ["123 Main Street"],
          "city": "Pittsburgh",
          "state": "PA",
          "postalCode": "12519"
        }
      ],
      "maritalStatus": {
        "coding": [
          {
            "system": "http://terminology.hl7.org/CodeSystem/v3-MaritalStatus",
            "code": "M"
          }
        ]
      }
    }
  }
]
