[
  {
    "fullUrl": "resource:0",
    "resource": {
      "resourceType": "Coverage",
      "meta": {
        "versionId": "1",
        "lastUpdated": "2023-04-04T17:11:12.806204Z",
        "profile": [
          "http://hl7.org/fhir/us/insurance-card/StructureDefinition/C4DIC-Coverage"
        ]
      },
      "extension": [
        {
          "url": "http://hl7.org/fhir/us/insurance-card/StructureDefinition/C4DIC-PlanBeneficiaries-extension",
          "extension": [
            {
              "url": "memberId",
              "valueString": "U48412318-01"
            },
            {
              "url": "name",
              "valueHumanName": {
                "family": "Nuckolls",
                "given": [
                  "Brandon"
                ]
              }
            }
          ]
        },
        {
          "url": "http://hl7.org/fhir/us/insurance-card/StructureDefinition/C4DIC-Logo-extension",
          "extension": [
            {
              "url": "label",
              "valueString": "Cigna HealthCare"
            },
            {
              "url": "description",
              "valueString": "Company logo"
            },
            {
              "url": "image",
              "valueAttachment": {
                "contentType": "image/png",
                "data": ""
              }
            }
          ]
        },
        {
          "url": "http://hl7.org/fhir/us/insurance-card/StructureDefinition/C4DIC-AdditionalCardInformation-extension",
          "valueAnnotation": {
            "text": "1-888-992-4462"
          }
        }
      ],
      "identifier": [
        {
          "type": {
            "coding": [
              {
                "system": "http://terminology.hl7.org/CodeSystem/v2-0203",
                "code": "MB",
                "display": "Member Number"
              }
            ]
          },
          "system": "https://www.cigna.com/glossary/memberid",
          "value": "U48412318-01",
          "assigner": {
            "display": "Cigna HealthCare"
          }
        }
      ],
      "status": "active",
      "type": {
        "coding": [
          {
            "system": "http://terminology.hl7.org/CodeSystem/v3-ActCode",
            "code": "HIP",
            "display": "health insurance plan policy"
          }
        ],
        "text": "health insurance plan policy"
      },
      "subscriber": {
        "reference": "resource:1",
        "display": "Brandon Nuckolls"
      },
      "subscriberId": "U48412318 01",
      "beneficiary": {
        "reference": "resource:1",
        "display": "Brandon Nuckolls"
      },
      "dependent": "01",
      "relationship": {
        "coding": [
          {
            "system": "http://terminology.hl7.org/CodeSystem/subscriber-relationship",
            "code": "self",
            "display": "Self"
          }
        ]
      },
      "period": {
        "start": "2023-01-01"
      },
      "payor": [
        {
          "reference": "resource:2",
          "display": "Cigna HealthCare"
        }
      ],
      "class": [
        {
          "type": {
            "coding": [
              {
                "system": "http://terminology.hl7.org/CodeSystem/coverage-class",
                "code": "group"
              }
            ]
          },
          "value": "0593438"
        },
        {
          "type": {
            "coding": [
              {
                "system": "http://terminology.hl7.org/CodeSystem/coverage-class",
                "code": "plan"
              }
            ]
          },
          "value": "PPO Choice 3200/6400"
        },
        {
          "type": {
            "coding": [
              {
                "system": "http://terminology.hl7.org/CodeSystem/coverage-class",
                "code": "rxbin"
              }
            ]
          },
          "value": "618138"
        },
        {
          "type": {
            "coding": [
              {
                "system": "http://terminology.hl7.org/CodeSystem/coverage-class",
                "code": "rxpcn"
              }
            ]
          },
          "value": "2385COMM"
        },
        {
          "type": {
            "coding": [
              {
                "system": "http://terminology.hl7.org/CodeSystem/coverage-class",
                "code": "rxgroup"
              }
            ]
          },
          "value": "16953824"
        }
      ],
      "costToBeneficiary": [
        {
          "type": {
            "coding": [
              {
                "system": "http://hl7.org/fhir/us/insurance-card/CodeSystem/C4DICExtendedCopayTypeCS",
                "code": "IndInDed",
                "display": "Individual In Network Deductible"
              }
            ]
          },
          "valueMoney": {
            "currency": "USD",
            "value": 3200
          }
        },
        {
          "type": {
            "coding": [
              {
                "system": "http://hl7.org/fhir/us/insurance-card/CodeSystem/C4DICExtendedCopayTypeCS",
                "code": "IndOutDed",
                "display": "Invidual Out of Network Deductible"
              }
            ]
          },
          "valueMoney": {
            "currency": "USD",
            "value": 6400
          }
        },
        {
          "type": {
            "coding": [
              {
                "system": "http://hl7.org/fhir/us/insurance-card/CodeSystem/C4DICExtendedCopayTypeCS",
                "code": "IndInMax",
                "display": "Individual In Network Out of Pocket Maximum"
              }
            ]
          },
          "valueMoney": {
            "currency": "USD",
            "value": 6400
          }
        },
        {
          "type": {
            "coding": [
              {
                "system": "http://hl7.org/fhir/us/insurance-card/CodeSystem/C4DICExtendedCopayTypeCS",
                "code": "IndOutMax",
                "display": "Individual Out of Network Out of Pocket Maximum"
              }
            ]
          },
          "valueMoney": {
            "currency": "USD",
            "value": 11000
          }
        },
        {
          "type": {
            "coding": [
              {
                "system": "http://terminology.hl7.org/CodeSystem/coverage-copay-type",
                "code": "gpvisit",
                "display": "GP Office Visit Copay"
              }
            ]
          },
          "valueMoney": {
            "extension": [
              {
                "url": "http://hl7.org/fhir/us/insurance-card/StructureDefinition/C4DIC-BeneficiaryCostString-extension",
                "valueString": "15%/25%"
              }
            ]
          }
        },
        {
          "type": {
            "coding": [
              {
                "system": "http://terminology.hl7.org/CodeSystem/coverage-copay-type",
                "code": "spvisit",
                "display": "Specialist Office Visit Copay"
              }
            ]
          },
          "valueMoney": {
            "extension": [
              {
                "url": "http://hl7.org/fhir/us/insurance-card/StructureDefinition/C4DIC-BeneficiaryCostString-extension",
                "valueString": "15%/25%"
              }
            ]
          }
        },
        {
          "type": {
            "coding": [
              {
                "system": "http://terminology.hl7.org/CodeSystem/coverage-copay-type",
                "code": "urgentcare",
                "display": "Urgent Care"
              }
            ]
          },
          "valueMoney": {
            "extension": [
              {
                "url": "http://hl7.org/fhir/us/insurance-card/StructureDefinition/C4DIC-BeneficiaryCostString-extension",
                "valueString": "15%"
              }
            ]
          }
        },
        {
          "type": {
            "coding": [
              {
                "system": "http://example.com/demoTerms",
                "code": "coinsIn",
                "display": "In-Network CoInsurance"
              }
            ]
          },
          "valueMoney": {
            "extension": [
              {
                "url": "http://hl7.org/fhir/us/insurance-card/StructureDefinition/C4DIC-BeneficiaryCostString-extension",
                "valueString": "85%/15%"
              }
            ]
          }
        },
        {
          "type": {
            "coding": [
              {
                "system": "http://example.com/demoTerms",
                "code": "coinsOut",
                "display": "Out-of-Network CoInsurance"
              }
            ]
          },
          "valueMoney": {
            "extension": [
              {
                "url": "http://hl7.org/fhir/us/insurance-card/StructureDefinition/C4DIC-BeneficiaryCostString-extension",
                "valueString": "55%/45%"
              }
            ]
          }
        },
        {
          "type": {
            "coding": [
              {
                "system": "http://hl7.org/fhir/us/insurance-card/CodeSystem/C4DICExtendedCopayTypeCS",
                "code": "rx"
              }
            ]
          },
          "valueMoney": {
            "extension": [
              {
                "url": "http://hl7.org/fhir/us/insurance-card/StructureDefinition/C4DIC-BeneficiaryCostString-extension",
                "valueString": "Yes"
              }
            ]
          }
        }
      ]
    }
  },
  {
    "fullUrl": "resource:1",
    "resource": {
      "resourceType": "Patient",
      "meta": {
        "lastUpdated": "2023-04-04T17:11:12.804310Z",
        "profile": [
          "http://hl7.org/fhir/us/insurance-card/StructureDefinition/C4DIC-Patient"
        ]
      },
      "name": [
        {
          "family": "Nuckolls",
          "given": [
            "Brandon"
          ]
        }
      ],
      "birthDate": "1986-01-01",
    }
  },
  {
    "fullUrl": "resource:2",
    "resource": {
      "resourceType": "Organization",
      "meta": {
        "versionId": "4",
        "lastUpdated": "2023-04-04T17:11:12.826710Z",
        "profile": [
          "http://hl7.org/fhir/us/insurance-card/StructureDefinition/C4DIC-Organization"
        ]
      },
      "identifier": [
        {
          "type": {
            "coding": [
              {
                "system": "http://hl7.org/fhir/us/insurance-card/CodeSystem/C4DICIdentifierType",
                "code": "payerid"
              }
            ]
          },
          "value": "54001"
        }
      ],
      "name": "Cigna HealthCare",
      "contact": [
        {
          "purpose": {
            "coding": [
              {
                "system": "http://hl7.org/fhir/us/insurance-card/CodeSystem/C4DICExtendedContactTypeCS",
                "code": "provider",
                "display": "Customer Service"
              }
            ]
          },
          "telecom": [
            {
              "system": "phone",
              "value": "1-888-992-4462"
            }
          ]
        },
        {
          "purpose": {
            "coding": [
              {
                "system": "http://terminology.hl7.org/CodeSystem/contactentity-type",
                "code": "PAYOR",
                "display": "Send Claims to"
              }
            ]
          },
          "address": {
            "type": "postal",
            "text": "P.O. Box 182223 Chattanooga, TN 37422-7223",
            "line": [
              "P.O. Box 182223"
            ],
            "city": "Chattanooga",
            "state": "TN",
            "postalCode": "37422-7223",
            "country": "US"
          }
        }
      ],
      "hip": {
        "coding": [
          {
            "system": "",
            "code": "Cigna HealthCare",
            "display": "Cigna HealthCare"
          }
        ]
      },
      "active": true
    }
  }
]
